Folder: hyperAFM/Data/PolymerBlends

Note: Data/PolymerBlends/Film15_0004.txt
;ANFATEC Parameterfile

Version : 1.12
VistaScanVersion : 1.6.1.20
Date : 06/26/2017
Time : 02:47:51 PM
UTCDateTime : 2017/06/26 21:47:51
UserName : Jess
SampleName : PS/P3HT
CantileverType : NCHAu
CantileverID : 4
Lens : 0.9NA Air
Scanner : scanner
Scanner calibration : 2016-3-21 clscanner demo.ini
Head calibration : softlinHead.ini
Lockin calibration : controller_574-580-549-16.ini
StartDate : 06/26/2017
StartTime : 02:32:34 PM

FeedbackMode     : opticalforce
FeedbackModePiFM : 22
SetPoint         : 85
SetPointPhysUnit : V
FeedBackModus    : ncAFM R
Bias             : 0
BiasPhysUnit     : mV
Ki               : 2200
Kp               : 0

FastZKi    : 4
FastZKp    : 1e-6
FastZTd    : 0
FastZAlpha : 3

XStage     : 1369.905 ; µm
YStage     : 603.2712 ; µm
XScanRange : 15
YScanRange : 15
XPhysUnit  : µm
YPhysUnit  : µm
Speed      : 0.25 ; lines/sec
Angle      : 0 ; degrees
xPixel     : 256
yPixel     : 256
yCenter    : 0
xCenter    : 0
dzdx       : 0
dzdy       : 0
overscan[%]: 5

LockInFreq         : 1656008.75
LockInFreqPhysUnit : Hz
LockInAmpl         : 0.0451680442801411
LockInAmplPhysUnit : V

TimeConstant  : 20 ms
RollOff       : 12 db/oct
DetectionFrequency : 262763.53125
LaserController1State     : On
LaserController1Laser     : IR (Block Engineering tunable laser [LaserTune LT4000E])
LaserController1LaserWavelength: 6868.13186813187
LaserController1DutyCycle : 5 ; %
LaserController1VoltageLow: 0 ; V
LaserController1VoltageHigh: 4 ; V
LaserController1Frequency : 1393245.21875 ; Hz
LaserController2State     : Off
LaserController2Laser     : 650 nm
LaserController2LaserWavelength: 488
LaserController2DutyCycle : 50 ; %
LaserController2VoltageLow: 0 ; V
LaserController2VoltageHigh: 4 ; V
LaserController2Frequency : 1393245.21875 ; Hz

BottomObjectiveFocus : 0 ; µm
UserNotes: 1456 which is a P3HT peak. Point spectra at two different points 

FileDescBegin
FileName : Film15_0004TopographyFwd.int
Caption  : TopographyFwd
Scale    : 2.88e-6
PhysUnit : nm
Offset   : 0
FileDescEnd

FileDescBegin
FileName : Film15_0004TopographyBwd.int
Caption  : TopographyBwd
Scale    : 2.88e-6
PhysUnit : nm
Offset   : 0
FileDescEnd

FileDescBegin
FileName : Film15_0004ScanSensor-YFwd.int
Caption  : ScanSensor-YFwd
Scale    : 1e-8
PhysUnit : V
Offset   : 2.9000001
FileDescEnd

FileDescBegin
FileName : Film15_0004ScanSensor-XFwd.int
Caption  : ScanSensor-XFwd
Scale    : 1e-8
PhysUnit : V
Offset   : 1
FileDescEnd

FileDescBegin
FileName : Film15_0004AFMHead-ZFwd.int
Caption  : AFMHead-ZFwd
Scale    : -1.4e-7
PhysUnit : nm
Offset   : 0
FileDescEnd

FileDescBegin
FileName : Film15_0004AFMHead-ZBwd.int
Caption  : AFMHead-ZBwd
Scale    : -1.4e-7
PhysUnit : nm
Offset   : 0
FileDescEnd

FileDescBegin
FileName : Film15_0004Scanner-ZFwd.int
Caption  : Scanner-ZFwd
Scale    : -2.74e-6
PhysUnit : nm
Offset   : 0
FileDescEnd

FileDescBegin
FileName : Film15_0004Scanner-ZBwd.int
Caption  : Scanner-ZBwd
Scale    : -2.74e-6
PhysUnit : nm
Offset   : 0
FileDescEnd

FileDescBegin
Fil

Note: Data/PolymerBlends/Film15_0005.txt
;ANFATEC Parameterfile

Version : 1.12
VistaScanVersion : 1.6.1.20
Date : 06/26/2017
Time : 03:06:37 PM
UTCDateTime : 2017/06/26 22:06:37
UserName : Jess
SampleName : PS/P3HT
CantileverType : NCHAu
CantileverID : 4
Lens : 0.9NA Air
Scanner : scanner
Scanner calibration : 2016-3-21 clscanner demo.ini
Head calibration : softlinHead.ini
Lockin calibration : controller_574-580-549-16.ini
StartDate : 06/26/2017
StartTime : 02:51:23 PM

FeedbackMode     : opticalforce
FeedbackModePiFM : 22
SetPoint         : 85
SetPointPhysUnit : V
FeedBackModus    : ncAFM R
Bias             : 0
BiasPhysUnit     : mV
Ki               : 2200
Kp               : 0

FastZKi    : 4
FastZKp    : 1e-6
FastZTd    : 0
FastZAlpha : 3

XStage     : 1369.9014 ; µm
YStage     : 603.3732 ; µm
XScanRange : 15
YScanRange : 15
XPhysUnit  : µm
YPhysUnit  : µm
Speed      : 0.25 ; lines/sec
Angle      : 0 ; degrees
xPixel     : 256
yPixel     : 256
yCenter    : 0
xCenter    : 0
dzdx       : 0
dzdy       : 0
overscan[%]: 5

LockInFreq         : 1656008.75
LockInFreqPhysUnit : Hz
LockInAmpl         : 0.0451680442801411
LockInAmplPhysUnit : V

TimeConstant  : 20 ms
RollOff       : 12 db/oct
DetectionFrequency : 262763.53125
LaserController1State     : On
LaserController1Laser     : IR (Block Engineering tunable laser [LaserTune LT4000E])
LaserController1LaserWavelength: 6854.00959561343
LaserController1DutyCycle : 5 ; %
LaserController1VoltageLow: 0 ; V
LaserController1VoltageHigh: 4 ; V
LaserController1Frequency : 1393245.21875 ; Hz
LaserController2State     : Off
LaserController2Laser     : 650 nm
LaserController2LaserWavelength: 488
LaserController2DutyCycle : 50 ; %
LaserController2VoltageLow: 0 ; V
LaserController2VoltageHigh: 4 ; V
LaserController2Frequency : 1393245.21875 ; Hz

BottomObjectiveFocus : 0 ; µm
UserNotes: 1459, P3HT from point spectrum in image before 

FileDescBegin
FileName : Film15_0005TopographyFwd.int
Caption  : TopographyFwd
Scale    : 2.88e-6
PhysUnit : nm
Offset   : 0
FileDescEnd

FileDescBegin
FileName : Film15_0005TopographyBwd.int
Caption  : TopographyBwd
Scale    : 2.88e-6
PhysUnit : nm
Offset   : 0
FileDescEnd

FileDescBegin
FileName : Film15_0005ScanSensor-YFwd.int
Caption  : ScanSensor-YFwd
Scale    : 1e-8
PhysUnit : V
Offset   : 2.9000001
FileDescEnd

FileDescBegin
FileName : Film15_0005ScanSensor-XFwd.int
Caption  : ScanSensor-XFwd
Scale    : 1e-8
PhysUnit : V
Offset   : 1
FileDescEnd

FileDescBegin
FileName : Film15_0005AFMHead-ZFwd.int
Caption  : AFMHead-ZFwd
Scale    : -1.4e-7
PhysUnit : nm
Offset   : 0
FileDescEnd

FileDescBegin
FileName : Film15_0005AFMHead-ZBwd.int
Caption  : AFMHead-ZBwd
Scale    : -1.4e-7
PhysUnit : nm
Offset   : 0
FileDescEnd

FileDescBegin
FileName : Film15_0005Scanner-ZFwd.int
Caption  : Scanner-ZFwd
Scale    : -2.74e-6
PhysUnit : nm
Offset   : 0
FileDescEnd

FileDescBegin
FileName : Film15_0005Scanner-ZBwd.int
Caption  : Scanner-ZBwd
Scale    : -2.74e-6
PhysUnit : nm
Offset   : 0
FileDescEnd

FileDescBegin
FileName : Film15_00

Note: README.md
# hyperAFM
Correlating electronic and chemical structures of materials to develop an understanding of the relationship between  the nanoscale chemical structure and electrical properties of materials to accelerate their progress in the  application as the active layer in solar cells.

File: Film15_0004_afmspectrum0001.txt
Wavenumber (cm^-1)	Intensity (V)
760	1.17332e-05
763.996	1.17877e-05
767.993	7.73586e-06
771.989	8.69603e-06
775.986	1.21962e-05
779.982	7.4839e-06
783.978	6.87102e-06
787.975	4.6851e-06
791.971	2.94862e-06
795.968	3.98369e-06
799.964	3.71131e-06
803.961	1.33811e-05
807.957	9.56768e-06
811.953	6.96636e-06
815.95	8.70965e-06
819.946	1.15834e-05
823.943	1.02214e-05
827.939	4.17437e-06
831.935	6.93231e-06
835.932	3.60235e-06
839.928	4.42633e-06
843.925	2.3085e-06
847.921	5.88361e-06
851.918	2.73751e-06
855.914	8.71646e-06
859.91	3.55468e-06
863.907	8.13763e-06
867.903	5.27073e-06
871.9	3.74535e-07
875.896	2.33574e-06
879.892	4.38547e-06
883.889	2.00887e-06
887.885	5.3184e-06
891.882	6.42158e-06
895.878	2.10421e-06
899.875	9.13866e-06
903.871	4.30375e-06
907.867	4.67148e-06
911.864	7.25918e-06
915.86	1.32109e-06
919.857	1.17127e-06
923.853	9.13185e-06
927.849	4.76e-06
931.846	1.07594e-05
935.842	3.40487e-06
939.839	4.24246e-06
943.835	8.54622e-06
947.832	2.08378e-06
951.828	2.13145e-06
955.824	1.23937e-06
959.821	2.66942e-06
963.817	7.06169e-06
967.814	6.31943e-06
971.81	2.50598e-06
975.806	3.7794e-06
979.803	2.26764e-06
983.799	6.32624e-06
987.796	1.34833e-06
991.792	1.00171e-05
995.789	1.02827e-05
999.785	3.03033e-06
1003.78	3.76578e-06
1007.78	2.74432e-06
1011.77	2.59451e-06
1015.77	6.38072e-06
1019.77	7.75629e-06
1023.76	3.34358e-06
1027.76	5.28435e-06
1031.76	4.11989e-06
1035.75	6.10152e-06
1039.75	3.58192e-06
1043.75	3.68407e-06
1047.74	2.79199e-07
1051.74	6.48287e-06
1055.73	4.57614e-06
1059.73	3.09843e-06
1063.73	2.56046e-06
1067.72	5.22307e-06
1071.72	3.05757e-06
1075.72	6.82335e-06
1079.71	2.88733e-06
1083.71	2.81242e-06
1087.71	1.77734e-06
1091.7	3.35039e-06
1095.7	7.1366e-06
1099.7	1.49814e-06
1103.69	2.46512e-06
1107.69	1.22848e-05
1111.68	8.28745e-06
1115.68	8.6075e-06
1119.68	5.57717e-06
1123.67	5.74061e-06
1127.67	2.95542e-06
1131.67	4.69872e-06
1135.66	5.69294e-06
1139.66	5.20264e-06
1143.66	6.32624e-06
1147.65	6.59863e-06
1151.65	4.63062e-06
1155.65	6.40796e-06
1159.64	2.26083e-06
1163.64	4.71234e-06
1167.63	2.59451e-06
1171.63	3.078e-06
1175.63	8.02187e-06
1179.62	3.8475e-06
1183.62	9.70387e-06
1187.62	4.11308e-06
1191.61	3.4253e-06
1195.61	5.51588e-06
1199.61	4.73958e-06
1203.6	5.57717e-06
1207.6	6.58501e-06
1211.59	8.40321e-06
1215.59	5.93128e-06
1219.59	8.79818e-06
1223.58	1.05278e-05
1227.58	6.44882e-06
1231.58	4.32418e-06
1235.57	1.04529e-05
1239.57	6.48287e-06
1243.57	2.88733e-06
1247.56	1.02895e-05
1251.56	1.80458e-06
1255.56	8.44407e-06
1259.55	3.79983e-06
1263.55	4.81448e-06
1267.54	4.48081e-06
1271.54	5.91085e-06
1275.54	6.72121e-06
1279.53	1.01125e-05
1283.53	8.3964e-06
1287.53	1.11543e-05
1291.52	1.25844e-05
1295.52	2.16618e-05
1299.52	1.70652e-05
1303.51	9.22038e-06
1307.51	7.14341e-06
1311.51	1.65477e-06
1315.5	7.81077e-06
1319.5	1.39327e-05
1323.49	1.07117e-05
1327.49	1.36399e-05
1331.49	1.13382e-05
1335.48	1.1774e-05
1339.48	9.98988e-06
1343.48	6.63949e-06
1347.47	4.37185e-06
1351.47	3.74535e-06
1355.47	1.82024e-05
1359.46	3.11886e-05
1363.46	3.84001e-05
1367.46	3.79234e-05
1371.45	4.68305e-05
1375.45	5.35586e-05
1379.44	4.75388e-05
1383.44	4.79678e-05
1387.44	4.24655e-05
1391.43	4.53052e-05
1395.43	4.6279e-05
1399.43	3.56013e-05
1403.42	3.9762e-05
1407.42	3.94147e-05
1411.42	4.1982e-05
1415.41	3.45526e-05
1419.41	2.36434e-05
1423.41	2.37047e-05
1427.4	1.58735e-05
1431.4	3.34358e-05
1435.39	3.71607e-05
1439.39	4.96498e-05
1443.39	4.92684e-05
1447.38	7.31842e-05
1451.38	7.88635e-05
1455.38	0.000103569
1459.37	8.71033e-05
1463.37	6.12876e-05
1467.37	6.44405e-05
1471.36	6.38208e-05
1475.36	5.95988e-05
1479.35	4.73753e-05
1483.35	6.64085e-05
1487.35	6.82335e-05
1491.34	8.13218e-05
1495.34	0.000110236
1499.34	0.000108282
1503.33	7.33068e-05
1507.33	5.70928e-05
1511.33	4.81176e-05
1515.32	4.71029e-05
1519.32	5.30546e-05
1523.32	5.31704e-05
1527.31	4.90709e-05
1531.31	5.41033e-05
1535.3	5.18902e-05
1539.3	3.83933e-05
1543.3	2.85396e-05
1547.29	2.96087e-05
1551.29	3.86452e-05
1555.29	4.00753e-05
1559.28	3.3e-05
1563.28	3.15359e-05
1567.28	3.54651e-05
1571.27	2.88324e-05
1575.27	3.11682e-05
1579.27	2.78382e-05
1583.26	3.74331e-05
1587.26	3.23599e-05
1591.25	2.60336e-05
1595.25	2.6272e-05
1599.25	2.51892e-05
1603.24	2.48283e-05
1607.24	2.24994e-05
1611.24	1.62072e-05
1615.23	1.22507e-05
1619.23	7.85843e-06
1623.23	1.07866e-05
1627.22	2.87371e-06
1631.22	3.90198e-06
1635.22	6.67354e-07
1639.21	6.2241e-06
1643.21	5.64527e-06
1647.2	3.72492e-06
1651.2	5.12773e-06
1655.2	6.76888e-06
1659.19	6.98679e-06
1663.19	5.47503e-06
1667.19	8.61431e-06
1671.18	1.31768e-05
1675.18	1.44026e-05
1679.18	8.51898e-06
1683.17	8.81861e-06
1687.17	8.34192e-06
1691.16	6.17643e-06
1695.16	1.72014e-05
1699.16	1.15765e-05
1703.15	1.8359e-05
1707.15	1.02418e-05
1711.15	1.17127e-05
1715.14	2.58702e-05
1719.14	1.50631e-05
1723.14	2.04633e-05
1727.13	1.61118e-05
1731.13	9.5813e-06
1735.13	6.19005e-06
1739.12	9.56768e-06
1743.12	1.47499e-05
1747.11	1.55058e-05
1751.11	1.70243e-05
1755.11	1.25844e-05
1759.1	1.71946e-05
1763.1	8.66198e-06
1767.1	1.53355e-05
1771.09	1.90332e-05
1775.09	1.29657e-05
1779.09	1.55398e-05
1783.08	1.09705e-05
1787.08	1.15629e-05
1791.08	1.15221e-05
1795.07	1.05823e-05
1799.07	9.92178e-06
1803.06	1.02963e-05
1807.06	8.85946e-06
1811.06	1.7467e-05
1815.05	7.3477e-06
1819.05	1.47567e-05
1823.05	3.07119e-06
1827.04	9.14547e-06
1831.04	1.19579e-05
1835.04	8.15806e-06
1839.03	4.38547e-06
1843.03	7.77672e-06
1847.03	5.37288e-06
1851.02	1.39123e-05
1855.02	1.83182e-06
1859.01	8.56665e-06
1863.01	7.65414e-06
1867.01	6.97998e-06
1871	5.54993e-06
1875	2.21997e-06

File: Film15_0004_afmspectrum0002.txt
Wavenumber (cm^-1)	Intensity (V)
760	1.77053e-07
763.996	7.00041e-06
767.993	5.1754e-06
771.989	1.06981e-05
775.986	1.06981e-05
779.982	2.24721e-06
783.978	2.41065e-06
787.975	3.9156e-06
791.971	1.3279e-06
795.968	5.27073e-06
799.964	3.88155e-06
803.961	6.23772e-06
807.957	1.04121e-05
811.953	8.32831e-06
815.95	4.91663e-06
819.946	8.6756e-06
823.943	2.71708e-06
827.939	3.02352e-06
831.935	6.299e-06
835.932	1.02487e-05
839.928	1.6071e-06
843.925	4.03817e-06
847.921	2.19273e-06
851.918	5.37288e-06
855.914	3.73854e-06
859.91	7.1366e-06
863.907	4.27651e-06
867.903	1.00648e-05
871.9	8.75051e-06
875.896	3.35039e-06
879.892	2.08378e-06
883.889	5.96533e-06
887.885	4.18799e-06
891.882	9.0229e-06
895.878	6.05385e-06
899.875	4.617e-06
903.871	2.52641e-06
907.867	8.79137e-06
911.864	5.26392e-06
915.86	1.21894e-06
919.857	2.51279e-06
923.853	1.30066e-06
927.849	4.31056e-06
931.846	3.80664e-06
935.842	4.23565e-06
939.839	7.49752e-06
943.835	4.66467e-06
947.832	6.86421e-06
951.828	5.72018e-06
955.824	2.90095e-06
959.821	8.3964e-06
963.817	3.33677e-06
967.814	7.64733e-06
971.81	3.21419e-06
975.806	9.94221e-07
979.803	4.36504e-06
983.799	1.90673e-06
987.796	3.99731e-06
991.792	5.84275e-06
995.789	7.47028e-06
999.785	4.63743e-06
1003.78	5.1754e-06
1007.78	6.89826e-06
1011.77	6.78931e-06
1015.77	5.49546e-06
1019.77	5.52269e-06
1023.76	4.37866e-06
1027.76	1.35514e-06
1031.76	5.59079e-06
1035.75	3.84069e-06
1039.75	2.77156e-06
1043.75	4.88258e-06
1047.74	3.71811e-06
1051.74	2.01568e-06
1055.73	5.9449e-06
1059.73	6.65992e-06
1063.73	6.31943e-06
1067.72	4.73277e-06
1071.72	3.97008e-06
1075.72	4.04498e-06
1079.71	1.36876e-06
1083.71	2.81923e-06
1087.71	1.8863e-06
1091.7	7.95377e-06
1095.7	8.38278e-06
1099.7	1.39395e-05
1103.69	1.24414e-05
1107.69	5.52269e-06
1111.68	7.1366e-06
1115.68	6.48287e-06
1119.68	8.19211e-06
1123.67	1.81139e-06
1127.67	4.24927e-06
1131.67	1.02827e-06
1135.66	8.73689e-06
1139.66	7.42942e-06
1143.66	2.47874e-06
1147.65	7.42261e-06
1151.65	6.51692e-06
1155.65	6.01981e-06
1159.64	5.08687e-06
1163.64	3.95646e-06
1167.63	2.39022e-06
1171.63	5.96533e-06
1175.63	5.53631e-06
1179.62	6.65311e-06
1183.62	6.21048e-06
1187.62	6.29219e-06
1191.61	6.68716e-06
1195.61	1.40962e-06
1199.61	3.49339e-06
1203.6	1.26661e-06
1207.6	2.68985e-06
1211.59	5.89042e-06
1215.59	5.51588e-06
1219.59	2.77156e-06
1223.58	6.10833e-06
1227.58	3.5002e-06
1231.58	4.09265e-06
1235.57	7.0685e-06
1239.57	6.46925e-07
1243.57	7.695e-06
1247.56	8.1853e-06
1251.56	1.89311e-06
1255.56	2.19954e-06
1259.55	3.71811e-06
1263.55	3.7794e-06
1267.54	5.12092e-06
1271.54	5.40693e-06
1275.54	3.92922e-06
1279.53	4.82129e-06
1283.53	6.7144e-06
1287.53	6.96636e-06
1291.52	3.6364e-06
1295.52	8.51217e-07
1299.52	2.11783e-06
1303.51	5.01877e-06
1307.51	2.17912e-06
1311.51	7.9061e-06
1315.5	4.4059e-06
1319.5	2.0293e-06
1323.49	1.62072e-06
1327.49	4.03136e-06
1331.49	6.65992e-06
1335.48	5.32521e-06
1339.48	4.6851e-06
1343.48	5.78146e-06
1347.47	4.04498e-06
1351.47	2.15188e-06
1355.47	7.49752e-06
1359.46	4.59657e-06
1363.46	6.79611e-06
1367.46	8.96842e-06
1371.45	1.10999e-06
1375.45	3.8475e-06
1379.44	7.26599e-06
1383.44	8.66879e-06
1387.44	2.31531e-06
1391.43	3.02352e-06
1395.43	7.86524e-06
1399.43	1.0521e-05
1403.42	5.71337e-06
1407.42	4.46038e-06
1411.42	7.12979e-06
1415.41	8.36235e-06
1419.41	1.35514e-06
1423.41	5.5976e-06
1427.4	1.05823e-05
1431.4	7.36132e-06
1435.39	3.54787e-06
1439.39	9.78559e-06
1443.39	2.14507e-06
1447.38	1.79505e-05
1451.38	7.19108e-06
1455.38	2.91525e-05
1459.37	2.26968e-05
1463.37	1.98844e-05
1467.37	1.89719e-05
1471.36	1.49269e-05
1475.36	1.28568e-05
1479.35	4.55571e-06
1483.35	3.92241e-06
1487.35	7.82438e-06
1491.34	1.12429e-05
1495.34	1.78483e-05
1499.34	1.43277e-05
1503.33	1.04734e-05
1507.33	9.78559e-06
1511.33	1.18762e-05
1515.32	1.27819e-05
1519.32	7.09574e-06
1523.32	1.02963e-05
1527.31	1.03167e-05
1531.31	1.1059e-05
1535.3	9.07738e-06
1539.3	9.22038e-06
1543.3	3.78621e-06
1547.29	3.52063e-06
1551.29	5.8087e-06
1555.29	4.43314e-06
1559.28	4.60338e-06
1563.28	5.48184e-06
1567.28	5.04601e-06
1571.27	1.20737e-05
1575.27	1.02078e-05
1579.27	6.51011e-06
1583.26	7.38856e-06
1587.26	2.83285e-06
1591.25	5.50908e-06
1595.25	1.02895e-05
1599.25	6.8574e-06
1603.24	7.08212e-06
1607.24	3.56149e-06
1611.24	3.04395e-06
1615.23	9.38381e-06
1619.23	4.85534e-06
1623.23	3.03714e-06
1627.22	2.66261e-06
1631.22	6.94593e-07
1635.22	1.5138e-05
1639.21	1.04121e-05
1643.21	1.78415e-06
1647.2	4.474e-06
1651.2	8.80499e-06
1655.2	5.26392e-06
1659.19	3.90198e-06
1663.19	2.31531e-06
1667.19	3.47977e-06
1671.18	3.60235e-06
1675.18	7.70181e-06
1679.18	4.76681e-06
1683.17	4.70553e-06
1687.17	2.4515e-06
1691.16	5.35926e-06
1695.16	3.49339e-06
1699.16	3.75216e-06
1703.15	1.2598e-06
1707.15	7.94696e-06
1711.15	2.97585e-06
1715.14	6.32624e-06
1719.14	2.73751e-06
1723.14	2.88733e-06
1727.13	2.52641e-06
1731.13	4.90982e-06
1735.13	8.43045e-06
1739.12	2.57408e-06
1743.12	2.53322e-06
1747.11	2.6558e-06
1751.11	4.58976e-06
1755.11	1.93396e-06
1759.1	3.67726e-06
1763.1	6.40796e-06
1767.1	4.43995e-06
1771.09	2.35617e-06
1775.09	3.01671e-06
1779.09	3.75216e-06
1783.08	6.88464e-06
1787.08	3.19377e-06
1791.08	7.04808e-06
1795.07	3.28229e-06
1799.07	3.99731e-06
1803.06	7.98101e-06
1807.06	1.77053e-06
1811.06	3.05076e-06
1815.05	8.55984e-06
1819.05	2.6558e-06
1823.05	4.24927e-06
1827.04	4.18118e-06
1831.04	8.36916e-06
1835.04	7.96058e-06
1839.03	8.59388e-06
1843.03	7.23194e-06
1847.03	8.36916e-06
1851.02	2.32212e-06
1855.02	3.34358e-06
1859.01	6.21048e-06
1863.01	4.80086e-06
1867.01	2.2404e-06
1871	4.22885e-06
1875	7.86524e-06

File: Film15_0010_afmspectrum0001.txt
Wavenumber (cm^-1)	Intensity (V)
760	4.88939e-06
763.996	1.65e-05
767.993	1.21622e-05
771.989	1.42732e-05
775.986	8.57346e-06
779.982	1.26389e-05
783.978	1.81139e-06
787.975	1.69358e-05
791.971	1.59824e-05
795.968	8.3964e-06
799.964	3.69428e-05
803.961	1.21349e-05
807.957	1.64932e-05
811.953	3.18219e-05
815.95	2.82332e-05
819.946	2.55842e-05
823.943	2.35004e-05
827.939	2.04633e-05
831.935	1.02282e-05
835.932	2.41133e-05
839.928	1.97687e-05
843.925	2.49917e-06
847.921	1.71061e-05
851.918	2.54139e-05
855.914	3.61597e-06
859.91	1.82365e-05
863.907	1.63774e-05
867.903	1.40144e-05
871.9	4.51485e-06
875.896	1.28227e-05
879.892	1.70039e-05
883.889	1.54513e-05
887.885	1.11952e-05
891.882	7.29323e-06
895.878	2.28807e-06
899.875	9.77197e-06
903.871	1.37489e-05
907.867	6.09471e-06
911.864	1.18149e-05
915.86	1.05074e-05
919.857	5.22988e-06
923.853	1.40076e-05
927.849	1.51653e-05
931.846	1.17196e-05
935.842	1.00784e-05
939.839	2.66737e-05
943.835	1.29657e-05
947.832	4.41952e-06
951.828	5.91085e-06
955.824	1.08411e-05
959.821	1.12361e-05
963.817	8.78456e-06
967.814	1.57169e-05
971.81	1.06572e-05
975.806	1.07934e-05
979.803	2.07288e-05
983.799	4.9643e-06
987.796	1.56352e-05
991.792	1.17127e-05
995.789	1.0344e-05
999.785	2.52437e-05
1003.78	9.38381e-06
1007.78	1.02895e-05
1011.77	3.68407e-06
1015.77	3.54787e-06
1019.77	1.1025e-05
1023.76	2.16754e-05
1027.76	1.96597e-05
1031.76	1.05823e-05
1035.75	1.18217e-05
1039.75	2.15869e-05
1043.75	1.87744e-05
1047.74	1.19238e-05
1051.74	1.73853e-05
1055.73	5.78146e-06
1059.73	8.50536e-06
1063.73	1.21213e-05
1067.72	1.28227e-05
1071.72	1.5819e-05
1075.72	9.21357e-06
1079.71	1.12429e-05
1083.71	1.14472e-05
1087.71	1.13042e-05
1091.7	1.55398e-05
1095.7	1.64523e-05
1099.7	1.15765e-05
1103.69	2.94181e-06
1107.69	1.48248e-05
1111.68	1.72559e-05
1115.68	4.23565e-06
1119.68	2.69257e-05
1123.67	1.33539e-05
1127.67	9.33615e-06
1131.67	1.00307e-05
1135.66	1.16515e-05
1139.66	6.84378e-06
1143.66	2.6844e-05
1147.65	1.7324e-05
1151.65	1.14404e-05
1155.65	1.2421e-05
1159.64	8.08996e-06
1163.64	1.37284e-05
1167.63	9.64258e-06
1171.63	1.64115e-06
1175.63	5.65889e-06
1179.62	1.11067e-05
1183.62	1.08956e-05
1187.62	1.02487e-05
1191.61	1.13178e-05
1195.61	6.80973e-06
1199.61	6.59182e-06
1203.6	3.26186e-06
1207.6	9.84688e-06
1211.59	4.32418e-06
1215.59	1.53764e-05
1219.59	2.67623e-06
1223.58	9.71749e-06
1227.58	1.15425e-05
1231.58	4.17437e-06
1235.57	1.66226e-05
1239.57	2.57136e-05
1243.57	1.45524e-05
1247.56	1.30202e-05
1251.56	8.43726e-06
1255.56	3.36401e-06
1259.55	1.13723e-05
1263.55	2.03815e-05
1267.54	1.05415e-05
1271.54	1.86519e-05
1275.54	1.31155e-05
1279.53	1.27274e-05
1283.53	1.21281e-05
1287.53	2.16073e-05
1291.52	1.62821e-05
1295.52	1.81343e-05
1299.52	9.37019e-06
1303.51	1.98776e-05
1307.51	2.34663e-05
1311.51	9.36338e-06
1315.5	1.49542e-05
1319.5	8.21935e-06
1323.49	7.53157e-06
1327.49	1.81275e-05
1331.49	1.7181e-05
1335.48	2.1403e-05
1339.48	1.8216e-05
1343.48	8.7437e-06
1347.47	1.67247e-05
1351.47	8.49855e-06
1355.47	4.58091e-05
1359.46	2.98062e-05
1363.46	3.95986e-05
1367.46	4.58295e-05
1371.45	4.59861e-05
1375.45	5.66161e-05
1379.44	4.29626e-05
1383.44	5.52338e-05
1387.44	4.04294e-05
1391.43	4.55571e-05
1395.43	3.89789e-05
1399.43	6.25066e-05
1403.42	4.49238e-05
1407.42	2.84715e-05
1411.42	3.01739e-05
1415.41	5.51929e-05
1419.41	2.70142e-05
1423.41	3.04123e-05
1427.4	2.45491e-05
1431.4	5.12228e-05
1435.39	6.20367e-05
1439.39	4.10286e-05
1443.39	5.53223e-05
1447.38	8.94186e-05
1451.38	9.99533e-05
1455.38	0.000110726
1459.37	6.31262e-05
1463.37	5.35722e-05
1467.37	7.57174e-05
1471.36	4.72119e-05
1475.36	5.22783e-05
1479.35	7.57174e-05
1483.35	6.87511e-05
1487.35	7.78148e-05
1491.34	7.21083e-05
1495.34	0.000129514
1499.34	9.18906e-05
1503.33	8.29085e-05
1507.33	6.81995e-05
1511.33	5.88702e-05
1515.32	5.2469e-05
1519.32	5.00243e-05
1523.32	6.00346e-05
1527.31	6.27313e-05
1531.31	6.60068e-05
1535.3	4.47944e-05
1539.3	3.71471e-05
1543.3	4.09742e-05
1547.29	4.38615e-05
1551.29	3.53017e-05
1555.29	4.5312e-05
1559.28	2.42971e-05
1563.28	4.51009e-05
1567.28	4.87781e-05
1571.27	3.97348e-05
1575.27	2.58838e-05
1579.27	3.18696e-05
1583.26	2.91457e-05
1587.26	4.66807e-05
1591.25	7.94015e-06
1595.25	3.82571e-05
1599.25	5.02626e-05
1603.24	4.21182e-05
1607.24	1.5424e-05
1611.24	1.52674e-05
1615.23	6.70078e-06
1619.23	1.50018e-05
1623.23	1.15561e-05
1627.22	1.48044e-05
1631.22	7.91972e-06
1635.22	2.17639e-05
1639.21	1.02895e-05
1643.21	1.64932e-05
1647.2	4.07222e-06
1651.2	6.3671e-06
1655.2	1.5499e-05
1659.19	6.49649e-06
1663.19	2.01296e-05
1667.19	1.05006e-05
1671.18	1.68677e-05
1675.18	2.77224e-05
1679.18	8.1172e-06
1683.17	1.16242e-05
1687.17	1.16651e-05
1691.16	3.3606e-05
1695.16	1.36944e-05
1699.16	1.55126e-05
1703.15	7.96058e-06
1707.15	1.89106e-05
1711.15	2.80561e-05
1715.14	9.8605e-06
1719.14	1.05823e-05
1723.14	3.00786e-05
1727.13	8.36916e-06
1731.13	2.35685e-05
1735.13	1.3422e-05
1739.12	6.9936e-06
1743.12	1.3313e-05
1747.11	1.44707e-05
1751.11	1.85361e-05
1755.11	4.48081e-06
1759.1	2.91661e-05
1763.1	2.8669e-05
1767.1	1.21962e-05
1771.09	1.57169e-05
1775.09	1.1488e-05
1779.09	1.78143e-05
1783.08	2.37387e-05
1787.08	1.25163e-05
1791.08	1.91354e-05
1795.07	2.11306e-05
1799.07	9.45872e-06
1803.06	1.47022e-05
1807.06	1.23052e-05
1811.06	7.66095e-06
1815.05	2.37524e-05
1819.05	3.24143e-06
1823.05	1.18285e-05
1827.04	8.87989e-06
1831.04	8.01506e-06
1835.04	4.26289e-06
1839.03	6.6463e-06
1843.03	9.36338e-06
1847.03	1.60505e-05
1851.02	1.19511e-05
1855.02	1.15357e-05
1859.01	8.16487e-06
1863.01	9.64258e-06
1867.01	3.35039e-06
1871	8.26021e-06
1875	1.37352e-05